Folder: TiN-HZO_experimental/sample_4.1_postann_550_PLD

Note: sample_4.1_postann_550_PLD/27_28 — копия.txt
27.0000   297
27.0200   287
27.0400   308
27.0600   320
27.0800   296
27.1000   287
27.1200   314
27.1400   304
27.1600   301
27.1800   281
27.2000   323
27.2200   299
27.2400   300
27.2600   331
27.2800   314
27.3000   321
27.3200   310
27.3400   306
27.3600   331
27.3800   303
27.4000   312
27.4200   312
27.4400   331
27.4600   336
27.4800   327
27.5000   330
27.5200   334
27.5400   332
27.5600   328
27.5800   332
27.6000   341
27.6200   322
27.6400   364
27.6600   359
27.6800   348
27.7000   341
27.7200   354
27.7400   356
27.7600   363
27.7800   387
27.8000   377
27.8200   370
27.8400   372
27.8600   385
27.8800   394
27.9000   387
27.9200   398
27.9400   405
27.9600   453
27.9800   423
28.0000   437
28.0200   442
28.0400   409
28.0500   462
28.0000   408
28.0200   416
28.0400   415
28.0600   414
28.0800   429
28.1000   465
28.1200   463
28.1400   467
28.1600   442
28.1800   483
28.2000   473
28.2200   490
28.2400   486
28.2600   481
28.2800   480
28.3000   486
28.3200   525
28.3400   502
28.3600   544
28.3800   502
28.4000   516
28.4200   530
28.4400   508
28.4600   506
28.4800   521
28.5000   544
28.5200   508
28.5400   521
28.5600   511
28.5800   532
28.6000   518
28.6200   535
28.6400   494
28.6600   502
28.6800   515
28.7000   502
28.7200   527
28.7400   495
28.7600   527
28.7800   502
28.8000   566
28.8200   507
28.8400   503
28.8600   509
28.8800   490
28.9000   414
28.9200   510
28.9400   477
28.9600   446
28.9800   466
29.0000   522
29.0200   459
29.0400   472
29.0600   473
29.0800   470
29.1000   490
29.1200   476
29.1400   466
29.1600   465
29.1800   465
29.2000   439
29.2200   491
29.2400   475
29.2600   463
29.2800   536
29.3000   483
29.3200   504
29.3400   475
29.3600   548
29.3800   494
29.4000   482
29.4200   494
29.4400   516
29.4600   558
29.4800   497
29.5000   530
29.5200   536
29.5400   475
29.5600   537
29.5800   534
29.6000   559
29.6200   552
29.6400   600
29.6600   598
29.6800   654
29.7000   607
29.7200   624
29.7400   702
29.7600   718
29.7800   720
29.8000   731
29.8200   745
29.8400   786
29.8600   846
29.8800   873
29.9000   895
29.9200   956
29.9400   1000
29.9600   1029
29.9800   1046
30.0000   1150
30.0200   1177
30.0400   1181
30.0500   1317
30.0000   1110
30.0200   1167
30.0400   1198
30.0600   1225
30.0800   1301
30.1000   1374
30.1200   1451
30.1400   1517
30.1600   1556
30.1800   1525
30.2000   1641
30.2200   1744
30.2400   1824
30.2600   1820
30.2800   1902
30.3000   1947
30.3200   1947
30.3400   1996
30.3600   2116
30.3800   2168
30.4000   2125
30.4200   2128
30.4400   2249
30.4600   2218
30.4800   2256
30.5000   2243
30.5200   2231
30.5400   2264
30.5600   2248
30.5800   2273
30.6000   2212
30.6200   2253
30.6400   2159
30.6600   2205
30.6800   2094
30.7000   2177
30.7200   1996
30.7400   2089
30.7600   2019
30.7800   1970
30.8000   1884
30.8200   1919
30.8400   1784
30.8600   1777
30.8800   1788
30.9000   1734
30.9200   1610
30.9400   1605
30.9600   1575
30.9800   1521
31.0000   1467
30.9000   1661
3

Note: sample_4.1_postann_550_PLD/27_28.txt
27.0000   297
27.0200   287
27.0400   308
27.0600   320
27.0800   296
27.1000   287
27.1200   314
27.1400   304
27.1600   301
27.1800   281
27.2000   323
27.2200   299
27.2400   300
27.2600   331
27.2800   314
27.3000   321
27.3200   310
27.3400   306
27.3600   331
27.3800   303
27.4000   312
27.4200   312
27.4400   331
27.4600   336
27.4800   327
27.5000   330
27.5200   334
27.5400   332
27.5600   328
27.5800   332
27.6000   341
27.6200   322
27.6400   364
27.6600   359
27.6800   348
27.7000   341
27.7200   354
27.7400   356
27.7600   363
27.7800   387
27.8000   377
27.8200   370
27.8400   372
27.8600   385
27.8800   394
27.9000   387
27.9200   398
27.9400   405
27.9600   453
27.9800   423
28.0000   437
28.0200   442
28.0400   409
28.0500   462

Note: sample_4.1_postann_550_PLD/28_30.txt
28.0000   408
28.0200   416
28.0400   415
28.0600   414
28.0800   429
28.1000   465
28.1200   463
28.1400   467
28.1600   442
28.1800   483
28.2000   473
28.2200   490
28.2400   486
28.2600   481
28.2800   480
28.3000   486
28.3200   525
28.3400   502
28.3600   544
28.3800   502
28.4000   516
28.4200   530
28.4400   508
28.4600   506
28.4800   521
28.5000   544
28.5200   508
28.5400   521
28.5600   511
28.5800   532
28.6000   518
28.6200   535
28.6400   494
28.6600   502
28.6800   515
28.7000   502
28.7200   527
28.7400   495
28.7600   527
28.7800   502
28.8000   566
28.8200   507
28.8400   503
28.8600   509
28.8800   490
28.9000   414
28.9200   510
28.9400   477
28.9600   446
28.9800   466
29.0000   522
29.0200   459
29.0400   472
29.0600   473
29.0800   470
29.1000   490
29.1200   476
29.1400   466
29.1600   465
29.1800   465
29.2000   439
29.2200   491
29.2400   475
29.2600   463
29.2800   536
29.3000   483
29.3200   504
29.3400   475
29.3600   548
29.3800   494
29.4000   482
29.4200   494
29.4400   516
29.4600   558
29.4800   497
29.5000   530
29.5200   536
29.5400   475
29.5600   537
29.5800   534
29.6000   559
29.6200   552
29.6400   600
29.6600   598
29.6800   654
29.7000   607
29.7200   624
29.7400   702
29.7600   718
29.7800   720
29.8000   731
29.8200   745
29.8400   786
29.8600   846
29.8800   873
29.9000   895
29.9200   956
29.9400   1000
29.9600   1029
29.9800   1046
30.0000   1150
30.0200   1177
30.0400   1181
30.0500   1317

Note: sample_4.1_postann_550_PLD/30_31.txt
30.0000   1110
30.0200   1167
30.0400   1198
30.0600   1225
30.0800   1301
30.1000   1374
30.1200   1451
30.1400   1517
30.1600   1556
30.1800   1525
30.2000   1641
30.2200   1744
30.2400   1824
30.2600   1820
30.2800   1902
30.3000   1947
30.3200   1947
30.3400   1996
30.3600   2116
30.3800   2168
30.4000   2125
30.4200   2128
30.4400   2249
30.4600   2218
30.4800   2256
30.5000   2243
30.5200   2231
30.5400   2264
30.5600   2248
30.5800   2273
30.6000   2212
30.6200   2253
30.6400   2159
30.6600   2205
30.6800   2094
30.7000   2177
30.7200   1996
30.7400   2089
30.7600   2019
30.7800   1970
30.8000   1884
30.8200   1919
30.8400   1784
30.8600   1777
30.8800   1788
30.9000   1734
30.9200   1610
30.9400   1605
30.9600   1575
30.9800   1521
31.0000   1467

Note: sample_4.1_postann_550_PLD/31_32.txt
30.9000   1661
30.9200   1679
30.9400   1635
30.9600   1528
30.9800   1518
31.0000   1491
31.0200   1488
31.0400   1357
31.0600   1369
31.0800   1307
31.1000   1272
31.1200   1247
31.1400   1238
31.1600   1171
31.1800   1050
31.2000   1114
31.2200   1093
31.2400   1065
31.2600   1010
31.2800   1069
31.3000   1004
31.3200   1001
31.3400   974
31.3600   956
31.3800   920
31.4000   939
31.4200   846
31.4400   891
31.4600   858
31.4800   808
31.5000   846
31.5200   852
31.5400   809
31.5600   825
31.5800   825
31.6000   770
31.6200   797
31.6400   757
31.6600   730
31.6800   755
31.7000   743
31.7200   700
31.7400   671
31.7600   662
31.7800   649
31.8000   643
31.8200   670
31.8400   631
31.8600   603
31.8800   649
31.9000   610
31.9200   616
31.9400   526
31.9600   568
31.9800   551
32.0000   510

Note: sample_4.1_postann_550_PLD/32_33.txt
31.9000   612
31.9200   558
31.9400   554
31.9600   551
31.9800   542
32.0000   521
32.0200   522
32.0400   510
32.0600   503
32.0800   482
32.1000   487
32.1200   489
32.1400   439
32.1600   453
32.1800   442
32.2000   391
32.2200   430
32.2400   380
32.2600   431
32.2800   428
32.3000   382
32.3200   410
32.3400   375
32.3600   359
32.3800   360
32.4000   369
32.4200   338
32.4400   318
32.4600   347
32.4800   346
32.5000   329
32.5200   312
32.5400   313
32.5600   314
32.5800   298
32.6000   335
32.6200   284
32.6400   289
32.6600   348
32.6800   252
32.7000   296
32.7200   247
32.7400   282
32.7600   280
32.7800   275
32.8000   285
32.8200   308
32.8400   312
32.8600   307
32.8800   295
32.9000   304
32.9200   287
32.9400   271
32.9600   292
32.9800   267
33.0000   283

File: HZO_XRD.dat
Baseline_X Subtracted_Data
27 0
27.06 23.3416
27.12 17.6832
27.18 -14.9752
27.24 4.3664
27.3 25.708
27.36 36.0496
27.42 17.3912
27.48 32.7328
27.54 38.0744
27.6 47.416
27.66 65.7576
27.72 61.0992
27.78 94.4408
27.84 79.7824
27.9 95.124
27.96 161.466
28.02 137.807
28.06 123.035
28.12 172.377
28.18 192.718
28.24 196.06
28.3 196.401
28.36 254.743
28.42 241.085
28.48 232.426
28.54 232.768
28.6 230.109
28.66 214.451
28.72 239.793
28.78 215.134
28.84 216.476
28.9 127.817
28.96 160.159
29.02 173.501
29.08 184.842
29.14 181.184
29.2 154.525
29.26 178.867
29.32 220.209
29.38 210.55
29.44 232.892
29.5 247.233
29.56 254.575
29.62 269.917
29.68 372.258
29.74 420.6
29.8 449.941
29.86 565.283
29.92 675.625
29.98 765.966
30.04 909.808
30.08 1021.54
30.14 1237.88
30.2 1362.22
30.26 1541.56
30.32 1668.9
30.38 1890.24
30.44 1971.59
30.5 1965.93
30.56 1971.27
30.62 1976.61
30.68 1817.95
30.74 1813.29
30.8 1608.63
30.86 1501.98
30.92 1369.82
30.98 1245.16
31.04 1083
31.1 998.343
31.16 897.684
31.22 820.026
31.28 796.368
31.34 701.709
31.4 667.051
31.46 586.392
31.52 580.734
31.58 554.076
31.64 486.417
31.7 472.759
31.76 392.1
31.82 400.442
31.88 379.784
31.94 271.125
32 246.967
32.06 234.808
32.12 221.15
32.18 174.492
32.24 112.833
32.3 115.175
32.36 92.5164
32.42 71.858
32.48 80.1996
32.54 47.5412
32.6 69.8828
32.66 83.2244
32.72 -17.434
32.78 10.9076
32.84 48.2492
32.9 20.0908
32.96 22.4324
33.02 -4.83988
33.08 -11.8399
33.14 7.16012
33.2 -0.839879
33.26 -5.83988
33.32 -28.8399
33.38 11.1601
33.44 6.16012
33.5 -15.8399
33.56 15.1601
33.62 -8.32433
33.68 13.4329
33.74 -3.80986
33.8 12.9474
33.86 5.70461
33.92 22.4618
33.98 47.2191
34.04 31.9763
34.1 4.73355
34.16 39.4908
34.22 50.248
34.28 74.0053
34.34 134.762
34.4 109.52
34.46 147.277
34.52 163.034
34.58 131.791
34.64 173.549
34.7 188.306
34.76 193.063
34.82 228.82
34.88 240.578
34.94 225.335
35 223.092
35.06 314.849
35.12 309.607
35.18 317.364
35.24 300.121
35.3 341.878
35.36 322.636
35.42 319.393
35.48 299.15
35.54 329.907
35.6 276.664
35.66 247.422
35.72 244.179
35.78 224.936
35.84 135.693
35.9 158.951
35.96 115.208
36.02 128.965
36.08 99.7223
36.14 93.4796
36.2 98.2368
36.26 131.994
36.32 124.751
36.38 147.509
36.44 262.266
36.5 243.023
36.56 293.78
36.62 394.537
36.68 432.295
36.74 556.052
36.8 603.809
36.86 606.566
36.92 638.324
36.98 655.081
37.04 643.838
37.1 644.595
37.16 546.353
37.22 465.11
37.28 375.867
37.34 323.624
37.4 206.382
37.46 171.139
37.52 138.896
37.58 104.653
37.64 37.4105
37.7 42.1677
37.76 26.925
37.82 -11.3178
37.88 -11.5606
37.94 -0.280751
38 -15.7656
38.06 -3.25054
38.12 -30.7354
38.18 -3.22033
38.24 -8.70522
38.3 3.80988
38.36 -28.675
38.42 -11.1599
38.48 -20.6448
38.54 -17.181
38.6 -34.5921
38.66 -10.0033
38.72 -21.4145
38.78 4.17433
38.84 6.76315
38.9 -27.648
38.96 -4.05921
39 0